# K+ density, from 6-gaussian atomic form factor from cctbx
# total number of electrons:
18
#r(A) e-density (A^-3)
0.025          5908.57
0.050          998.076
0.075          428.316
0.100          293.121
0.125          211.306
0.150          151.496
0.175          104.636
0.200          69.2185
0.225          44.2076
0.250          27.7396
0.275          17.5873
0.300          11.6878
0.325          8.41801
0.350          6.64947
0.375          5.67515
0.400          5.09126
0.425          4.68639
0.450          4.35883
0.475          4.06385
0.500          3.78374
0.525          3.51267
0.550          3.24946
0.575          2.99463
0.600          2.74917
0.625          2.51408
0.650          2.29022
0.675          2.07831
0.700          1.87884
0.725          1.69215
0.750          1.51838
0.775          1.35752
0.800          1.20942
0.825          1.07377
0.850         0.950177
0.875         0.838135
0.900         0.737066
0.925         0.646335
0.950         0.565267
0.975          0.49316
1.000         0.429303
1.025         0.372987
1.050          0.32352
1.075         0.280229
1.100         0.242476
1.125         0.209657
1.150          0.18121
1.175         0.156614
1.200         0.135394
1.225         0.117118
1.250           0.1014
1.275        0.0878938
1.300        0.0762924
1.325        0.0663269
1.350        0.0577623
1.375        0.0503944
1.400        0.0440471
1.425        0.0385694
1.450        0.0338319
1.475         0.029725
1.500        0.0261555
1.525        0.0230447
1.550        0.0203263
1.575        0.0179445
1.600        0.0158523
1.625        0.0140102
1.650        0.0123847
1.675        0.0109479
1.700       0.00967586
1.725        0.0085483
1.750       0.00754793
1.775       0.00665986
1.800       0.00587127
1.825       0.00517099
1.850       0.00454929
1.875       0.00399759
1.900       0.00350836
1.925       0.00307488
1.950        0.0026912
1.975       0.00235197
2.000       0.00205243
2.025        0.0017883
2.050       0.00155573
2.075       0.00135125
2.100       0.00117177
2.125       0.00101447
2.150      0.000876842
2.175      0.000756635
2.200      0.000651821
2.225      0.000560589
2.250      0.000481318
2.275      0.000412561
2.300       0.00035303
2.325      0.000301579
2.350      0.000257191
2.375      0.000218964
2.400      0.000186103
2.425      0.000157906
2.450      0.000133753
2.475      0.000113102
2.500       9.5477e-05
2.525      8.04616e-05
2.550      6.76924e-05
2.575      5.68528e-05
2.600      4.76678e-05
2.625      3.98987e-05
2.650       3.3339e-05
2.675      2.78105e-05
2.700      2.31592e-05
2.725      1.92531e-05
2.750      1.59786e-05
2.775      1.32384e-05
2.800      1.09495e-05
2.825      9.04095e-06
2.850      7.45236e-06
2.875      6.13246e-06
2.900      5.03774e-06
2.925       4.1314e-06
2.950      3.38236e-06
2.975      2.76441e-06
3.000      2.25552e-06
3.025      1.83718e-06
3.050      1.49388e-06
3.075      1.21267e-06
3.100      9.82714e-07
3.125      7.95012e-07
3.150      6.42068e-07
3.175      5.17665e-07
3.200      4.16656e-07
3.225      3.34785e-07
3.250      2.68545e-07
3.275      2.15044e-07
3.300      1.71909e-07
3.325      1.37192e-07
3.350        1.093e-07
3.375       8.6931e-08
3.400      6.90221e-08
3.425      5.47094e-08
3.450      4.32909e-08
3.475      3.41973e-08
3.500       2.6968e-08
3.525      2.12307e-08
3.550      1.66856e-08
3.575      1.30912e-08
3.600      1.02536e-08
3.625      8.01746e-09
3.650       6.2583e-09
3.675      4.87682e-09
3.700      3.79383e-09
3.725      2.94631e-09
3.750      2.28424e-09
3.775      1.76793e-09
3.800      1.36599e-09
3.825      1.05364e-09
3.850      8.11327e-10
3.875      6.23679e-10
3.900      4.78615e-10
3.925      3.66668e-10
3.950      2.80427e-10
3.975      2.14105e-10
4.000      1.63191e-10
