# MG density, from 6-gaussian atomic form factor from cctbx
# total number of electrons:
10
#r(A) e-density (A^-3)
0.025          2527.05
0.050          786.742
0.075          283.129
0.100          126.193
0.125          69.9635
0.150          51.6605
0.175           43.481
0.200          37.2945
0.225          31.6818
0.250           26.573
0.275          22.0302
0.300          18.0808
0.325          14.7131
0.350          11.8876
0.375           9.5491
0.400          7.63503
0.425          6.08256
0.450          4.83253
0.475          3.83178
0.500          3.03411
0.525          2.40036
0.550          1.89796
0.575          1.50024
0.600          1.18564
0.625         0.936859
0.650         0.740151
0.675         0.584622
0.700          0.46167
0.725         0.364498
0.750         0.287739
0.775         0.227143
0.800          0.17934
0.825         0.141654
0.850         0.111956
0.875        0.0885586
0.900        0.0701208
0.925        0.0555826
0.950        0.0441072
0.975        0.0350364
1.000        0.0278542
1.025        0.0221565
1.050        0.0176281
1.075        0.0140225
1.100        0.0111474
1.125       0.00885225
1.150       0.00701899
1.175       0.00555456
1.200       0.00438535
1.225       0.00345286
1.250       0.00271039
1.275       0.00212049
1.300       0.00165305
1.325       0.00128376
1.350      0.000993017
1.375      0.000764954
1.400      0.000586768
1.425      0.000448131
1.450      0.000340735
1.475      0.000257912
1.500      0.000194332
1.525      0.000145754
1.550      0.000108813
1.575       8.0857e-05
1.600      5.98027e-05
1.625      4.40234e-05
1.650      3.22553e-05
1.675      2.35216e-05
1.700      1.70719e-05
1.725      1.23322e-05
1.750      8.86631e-06
1.775      6.34435e-06
1.800      4.51827e-06
1.825      3.20256e-06
1.850      2.25924e-06
1.875      1.58623e-06
1.900      1.10843e-06
1.925      7.70888e-07
1.950      5.33595e-07
1.975      3.67596e-07
2.000      2.52039e-07
2.025      1.71991e-07
2.050       1.1681e-07
2.075      7.89572e-08
2.100      5.31182e-08
2.125      3.55658e-08
2.150      2.37007e-08
2.175      1.57191e-08
2.200       1.0376e-08
2.225      6.81671e-09
2.250      4.45714e-09
2.275      2.90052e-09
2.300       1.8786e-09
2.325      1.21096e-09
2.350        7.769e-10
2.375      4.96065e-10
2.400      3.15246e-10
2.425      1.99388e-10
2.450      1.25513e-10
2.475      7.86347e-11
2.500      4.90319e-11
2.525      3.04286e-11
2.550      1.87942e-11
2.575      1.15532e-11
2.600       7.0684e-12
2.625      4.30406e-12
2.650      2.60839e-12
2.675      1.57328e-12
2.700      9.44446e-13
2.725       5.6427e-13
2.750      3.35533e-13
2.775      1.98574e-13
2.800      1.16963e-13
2.825      6.85662e-14
2.850      4.00047e-14
2.875      2.32301e-14
2.900      1.34255e-14
2.925      7.72229e-15
2.950       4.4208e-15
2.975       2.5188e-15
3.000      1.42832e-15
3.025      8.06113e-16
3.050      4.52797e-16
3.075      2.53134e-16
3.100      1.40843e-16
3.125      7.79936e-17
3.150      4.29853e-17
3.175      2.35787e-17
3.200      1.28724e-17
3.225      6.99415e-18
3.250      3.78225e-18
3.275      2.03565e-18
3.300      1.09042e-18
3.325      5.81333e-19
3.350      3.08456e-19
3.375      1.62892e-19
3.400      8.56141e-20
3.425      4.47846e-20
3.450      2.33158e-20
3.475      1.20812e-20
3.500      6.23029e-21
3.525      3.19776e-21
3.550       1.6335e-21
3.575      8.30489e-22
3.600      4.20228e-22
3.625      2.11629e-22
3.650      1.06073e-22
3.675       5.2914e-23
3.700      2.62709e-23
3.725      1.29813e-23
3.750      6.38412e-24
3.775      3.12479e-24
3.800      1.52223e-24
3.825      7.38034e-25
3.850      3.56132e-25
3.875      1.71035e-25
3.900      8.17516e-26
3.925      3.88908e-26
3.950      1.84134e-26
3.975      8.67685e-27
4.000      4.06937e-27
