# Tl+ density, from 6-gaussian atomic form factor from cctbx
# total number of electrons:
80
#r(A) e-density (A^-3)
0.025            33843
0.050          7825.42
0.075           3830.2
0.100          1622.62
0.125          802.127
0.150          560.967
0.175          450.131
0.200          348.204
0.225          252.294
0.250          174.103
0.275          117.246
0.300          79.0555
0.325          54.7407
0.350          39.7245
0.375          30.4847
0.400          24.6269
0.425          20.6649
0.450          17.7447
0.475           15.409
0.500          13.4281
0.525          11.6927
0.550          10.1521
0.575          8.78177
0.600          7.56715
0.625          6.49704
0.650          5.56071
0.675          4.74718
0.700          4.04517
0.725          3.44327
0.750          2.93029
0.775          2.49542
0.800          2.12851
0.825          1.82015
0.850          1.56177
0.875           1.3457
0.900          1.16516
0.925          1.01424
0.950         0.887855
0.975         0.781667
1.000         0.692037
1.025         0.615933
1.050         0.550857
1.075          0.49477
1.100         0.446019
1.125         0.403281
1.150         0.365498
1.175         0.331832
1.200         0.301622
1.225         0.274346
1.250         0.249594
1.275         0.227042
1.300          0.20643
1.325         0.187551
1.350         0.170237
1.375         0.154347
1.400         0.139761
1.425         0.126379
1.450          0.11411
1.475         0.102874
1.500        0.0925955
1.525        0.0832078
1.550        0.0746472
1.575        0.0668539
1.600        0.0597719
1.625        0.0533481
1.650         0.047532
1.675        0.0422764
1.700        0.0375362
1.725        0.0332691
1.750        0.0294355
1.775        0.0259979
1.800        0.0229214
1.825        0.0201735
1.850        0.0177238
1.875        0.0155441
1.900        0.0136086
1.925        0.0118931
1.950        0.0103755
1.975       0.00903572
2.000       0.00785506
2.025       0.00681666
2.050       0.00590512
2.075       0.00510647
2.100       0.00440807
2.125       0.00379849
2.150       0.00326744
2.175       0.00280569
2.200       0.00240496
2.225       0.00205783
2.250       0.00175771
2.275       0.00149872
2.300       0.00127564
2.325       0.00108386
2.350      0.000919283
2.375      0.000778327
2.400      0.000657825
2.425         0.000555
2.450      0.000467424
2.475      0.000392975
2.500      0.000329802
2.525      0.000276297
2.550      0.000231065
2.575      0.000192898
2.600      0.000160752
2.625      0.000133727
2.650       0.00011105
2.675       9.2056e-05
2.700      7.61764e-05
2.725      6.29252e-05
2.750      5.18875e-05
2.775      4.27107e-05
2.800      3.50951e-05
2.825      2.87866e-05
2.850      2.35705e-05
2.875      1.92656e-05
2.900      1.57193e-05
2.925      1.28031e-05
2.950      1.04096e-05
2.975       8.4487e-06
3.000      6.84509e-06
3.025       5.5361e-06
3.050      4.46954e-06
3.075      3.60212e-06
3.100      2.89793e-06
3.125       2.3273e-06
3.150      1.86574e-06
3.175      1.49309e-06
3.200      1.19277e-06
3.225      9.51177e-07
3.250      7.57183e-07
3.275      6.01695e-07
3.300      4.77294e-07
3.325      3.77947e-07
3.350      2.98752e-07
3.375      2.35736e-07
3.400      1.85685e-07
3.425      1.46003e-07
3.450      1.14599e-07
3.475      8.97921e-08
3.500       7.0231e-08
3.525      5.48345e-08
3.550      4.27381e-08
3.575      3.32514e-08
3.600      2.58251e-08
3.625       2.0022e-08
3.650      1.54956e-08
3.675      1.19714e-08
3.700      9.23241e-09
3.725      7.10757e-09
3.750      5.46213e-09
3.775      4.19023e-09
3.800      3.20885e-09
3.825      2.45299e-09
3.850      1.87188e-09
3.875      1.42591e-09
3.900      1.08429e-09
3.925       8.2306e-10
3.950      6.23667e-10
3.975      4.71747e-10
4.000      3.56206e-10
